#K-Path(1/A) Energy-Level(eV)
# NKPTS & NBANDS:  60  40
# Band-Index    1
   0.00000     -8.804210
   0.05232     -8.788741
   0.10465     -8.742476
   0.15697     -8.665951
   0.20930     -8.560047
   0.26162     -8.425986
   0.31395     -8.265433
   0.36627     -8.080430
   0.41860     -7.873552
   0.47092     -7.647903
   0.52325     -7.407215
   0.57557     -7.156162
   0.62790     -6.900508
   0.68022     -6.647611
   0.73255     -6.407293
   0.78487     -6.192584
   0.83720     -6.019385
   0.88952     -5.900683
   0.94185     -5.855981
   0.99417     -5.856177
   0.99417     -5.856177
   1.04650     -5.839626
   1.09882     -5.790231
   1.15115     -5.708746
   1.20347     -5.596468
   1.25580     -5.460678
   1.30812     -5.328377
   1.36045     -5.201413
   1.41277     -5.107705
   1.46510     -5.075079
   1.51742     -5.102421
   1.56975     -5.165133
   1.62207     -5.241773
   1.67440     -5.319837
   1.72672     -5.392381
   1.77905     -5.455366
   1.83137     -5.506296
   1.88370     -5.543616
   1.93602     -5.566363
   1.98835     -5.574006
   1.98835     -5.574006
   2.06235     -5.559424
   2.13635     -5.524185
   2.21035     -5.488491
   2.28434     -5.470523
   2.35834     -5.487858
   2.43234     -5.564283
   2.50634     -5.723287
   2.58034     -5.972174
   2.65434     -6.294293
   2.72834     -6.659540
   2.80234     -7.038594
   2.87633     -7.408569
   2.95033     -7.752937
   3.02433     -8.059790
   3.09833     -8.320602
   3.17233     -8.529150
   3.24633     -8.681015
   3.32033     -8.773280
   3.39433     -8.804210
 
 
# Band-Index    2
   3.39433     -6.918070
   3.32033     -6.895070
   3.24633     -6.826242
   3.17233     -6.712106
   3.09833     -6.553626
   3.02433     -6.352372
   2.95033     -6.110796
   2.87633     -5.832419
   2.80234     -5.522429
   2.72834     -5.188108
   2.65434     -4.839937
   2.58034     -4.493895
   2.50634     -4.454886
   2.43234     -4.686038
   2.35834     -4.905655
   2.28434     -5.097302
   2.21035     -5.248581
   2.13635     -5.350461
   2.06235     -5.403988
   1.98835     -5.419995
   1.98835     -5.419995
   1.93602     -5.412245
   1.88370     -5.389200
   1.83137     -5.351458
   1.77905     -5.300077
   1.72672     -5.236681
   1.67440     -5.163671
   1.62207     -5.084466
   1.56975     -5.003939
   1.51742     -4.928866
   1.46510     -4.868155
   1.41277     -4.889706
   1.36045     -5.097828
   1.30812     -5.287933
   1.25580     -5.455319
   1.20347     -5.581527
   1.15115     -5.681747
   1.09882     -5.756164
   1.04650     -5.801834
   0.99417     -5.817221
   0.99417     -5.817221
   0.94185     -5.836657
   0.88952     -5.856033
   0.83720     -5.858189
   0.78487     -5.865468
   0.73255     -5.881845
   0.68022     -5.911719
   0.62790     -5.958870
   0.57557     -6.025306
   0.52325     -6.110401
   0.47092     -6.210822
   0.41860     -6.321226
   0.36627     -6.435430
   0.31395     -6.547288
   0.26162     -6.651195
   0.20930     -6.742421
   0.15697     -6.817172
   0.10465     -6.872566
   0.05232     -6.906595
   0.00000     -6.918070
 
 
# Band-Index    3
   0.00000     -5.410144
   0.05232     -5.399008
   0.10465     -5.368270
   0.15697     -5.325629
   0.20930     -5.278742
   0.26162     -5.230649
   0.31395     -5.184221
   0.36627     -5.145098
   0.41860     -5.120552
   0.47092     -5.115668
   0.52325     -5.129901
   0.57557     -5.157761
   0.62790     -5.191813
   0.68022     -5.224581
   0.73255     -5.248696
   0.78487     -5.256347
   0.83720     -5.240280
   0.88952     -5.200649
   0.94185     -5.155610
   0.99417     -5.135436
   0.99417     -5.135436
   1.04650     -5.124002
   1.09882     -5.090819
   1.15115     -5.039412
   1.20347     -4.976215
   1.25580     -4.911135
   1.30812     -4.857251
   1.36045     -4.828047
   1.41277     -4.831914
   1.46510     -4.669864
   1.51742     -4.446890
   1.56975     -4.232488
   1.62207     -4.041670
   1.67440     -4.002259
   1.72672     -4.012900
   1.77905     -4.015211
   1.83137     -4.010028
   1.88370     -3.999949
   1.93602     -3.989747
   1.98835     -3.985351
   1.98835     -3.985351
   2.06235     -3.993848
   2.13635     -4.010520
   2.21035     -4.018882
   2.28434     -4.008687
   2.35834     -3.982749
   2.43234     -3.989474
   2.50634     -4.180147
   2.58034     -4.237536
   2.65434     -4.109398
   2.72834     -4.251052
   2.80234     -4.414645
   2.87633     -4.583735
   2.95033     -4.749847
   3.02433     -4.905321
   3.09833     -5.051399
   3.17233     -5.207250
   3.24633     -5.319624
   3.32033     -5.387463
   3.39433     -5.410144
 
 
# Band-Index    4
   3.39433     -5.314676
   3.32033     -5.296719
   3.24633     -5.243657
   3.17233     -5.157897
   3.09833     -5.043377
   3.02433     -4.853629
   2.95033     -4.616094
   2.87633     -4.341727
   2.80234     -4.034700
   2.72834     -3.991977
   2.65434     -4.054290
   2.58034     -3.951765
   2.50634     -3.816491
   2.43234     -3.712998
   2.35834     -3.595003
   2.28434     -3.539824
   2.21035     -3.547814
   2.13635     -3.564874
   2.06235     -3.563795
   1.98835     -3.553335
   1.98835     -3.553335
   1.93602     -3.572780
   1.88370     -3.612365
   1.83137     -3.657066
   1.77905     -3.709424
   1.72672     -3.781586
   1.67440     -3.889396
   1.62207     -3.983797
   1.56975     -3.959233
   1.51742     -4.080473
   1.46510     -4.219052
   1.41277     -4.293284
   1.36045     -4.301311
   1.30812     -4.272904
   1.25580     -4.238762
   1.20347     -4.215873
   1.15115     -4.208176
   1.09882     -4.210942
   1.04650     -4.216586
   0.99417     -4.219184
   0.99417     -4.219184
   0.94185     -4.223205
   0.88952     -4.236272
   0.83720     -4.256329
   0.78487     -4.280747
   0.73255     -4.305869
   0.68022     -4.327403
   0.62790     -4.341134
   0.57557     -4.371113
   0.52325     -4.465433
   0.47092     -4.559559
   0.41860     -4.657846
   0.36627     -4.772311
   0.31395     -4.900885
   0.26162     -5.026812
   0.20930     -5.136432
   0.15697     -5.220843
   0.10465     -5.276048
   0.05232     -5.305509
   0.00000     -5.314676
 
 
# Band-Index    5
   0.00000     -4.787714
   0.05232     -4.780476
   0.10465     -4.759624
   0.15697     -4.727547
   0.20930     -4.687445
   0.26162     -4.641615
   0.31395     -4.588233
   0.36627     -4.516896
   0.41860     -4.410621
   0.47092     -4.315685
   0.52325     -4.335091
   0.57557     -4.344010
   0.62790     -4.281786
   0.68022     -4.207278
   0.73255     -4.157565
   0.78487     -4.138229
   0.83720     -4.147474
   0.88952     -4.175596
   0.94185     -4.205921
   0.99417     -4.218676
   0.99417     -4.218676
   1.04650     -4.206265
   1.09882     -4.170230
   1.15115     -4.114420
   1.20347     -4.046145
   1.25580     -3.977041
   1.30812     -3.921912
   1.36045     -3.892447
   1.41277     -3.889775
   1.46510     -3.906030
   1.51742     -3.931659
   1.56975     -3.905985
   1.62207     -3.723448
   1.67440     -3.552873
   1.72672     -3.407457
   1.77905     -3.310690
   1.83137     -3.406808
   1.88370     -3.483954
   1.93602     -3.535154
   1.98835     -3.553335
   1.98835     -3.553335
   2.06235     -3.544328
   2.13635     -3.517551
   2.21035     -3.473756
   2.28434     -3.450569
   2.35834     -3.561627
   2.43234     -3.684297
   2.50634     -3.716768
   2.58034     -3.626152
   2.65434     -3.513449
   2.72834     -3.701746
   2.80234     -4.026129
   2.87633     -4.136549
   2.95033     -4.280276
   3.02433     -4.425232
   3.09833     -4.553194
   3.17233     -4.655536
   3.24633     -4.729062
   3.32033     -4.773080
   3.39433     -4.787714
 
 
# Band-Index    6
   3.39433     -4.135503
   3.32033     -4.118724
   3.24633     -4.072702
   3.17233     -4.005691
   3.09833     -3.914537
   3.02433     -3.802142
   2.95033     -3.672649
   2.87633     -3.531813
   2.80234     -3.390633
   2.72834     -3.416817
   2.65434     -3.358869
   2.58034     -3.130166
   2.50634     -3.180771
   2.43234     -3.260380
   2.35834     -3.341692
   2.28434     -3.414330
   2.21035     -3.346000
   2.13635     -3.245151
   2.06235     -3.283713
   1.98835     -3.349554
   1.98835     -3.349554
   1.93602     -3.315898
   1.88370     -3.235177
   1.83137     -3.212376
   1.77905     -3.293806
   1.72672     -3.218303
   1.67440     -3.219997
   1.62207     -3.209295
   1.56975     -3.186245
   1.51742     -3.151516
   1.46510     -3.106686
   1.41277     -3.068258
   1.36045     -3.135343
   1.30812     -3.169791
   1.25580     -3.161170
   1.20347     -3.148632
   1.15115     -3.132740
   1.09882     -3.113532
   1.04650     -3.098915
   0.99417     -3.093533
   0.99417     -3.093533
   0.94185     -3.084382
   0.88952     -3.056989
   0.83720     -3.075733
   0.78487     -3.263130
   0.73255     -3.439684
   0.68022     -3.607668
   0.62790     -3.772218
   0.57557     -3.937980
   0.52325     -4.105229
   0.47092     -4.267627
   0.41860     -4.288765
   0.36627     -4.258043
   0.31395     -4.227027
   0.26162     -4.198490
   0.20930     -4.174275
   0.15697     -4.155319
   0.10465     -4.141971
   0.05232     -4.134581
   0.00000     -4.135503
 
 
# Band-Index    7
   0.00000     -4.127410
   0.05232     -4.113049
   0.10465     -4.060119
   0.15697     -3.971822
   0.20930     -3.849780
   0.26162     -3.695862
   0.31395     -3.512628
   0.36627     -3.303502
   0.41860     -3.073114
   0.47092     -2.827702
   0.52325     -2.575633
   0.57557     -2.529542
   0.62790     -2.657406
   0.68022     -2.770517
   0.73255     -2.867762
   0.78487     -2.948304
   0.83720     -3.011532
   0.88952     -2.970786
   0.94185     -2.995034
   0.99417     -3.003146
   0.99417     -3.003146
   1.04650     -3.012845
   1.09882     -3.040444
   1.15115     -3.081102
   1.20347     -3.125875
   1.25580     -3.150024
   1.30812     -3.124683
   1.36045     -3.066966
   1.41277     -3.020984
   1.46510     -2.912003
   1.51742     -2.876062
   1.56975     -2.902309
   1.62207     -2.981781
   1.67440     -3.088431
   1.72672     -3.202026
   1.77905     -3.205010
   1.83137     -3.182330
   1.88370     -3.159503
   1.93602     -3.130902
   1.98835     -3.121031
   1.98835     -3.121031
   2.06235     -3.158908
   2.13635     -3.130101
   2.21035     -3.100971
   2.28434     -3.086127
   2.35834     -3.068300
   2.43234     -3.049557
   2.50634     -3.037848
   2.58034     -3.090155
   2.65434     -3.154680
   2.72834     -3.253873
   2.80234     -3.387869
   2.87633     -3.465295
   2.95033     -3.598855
   3.02433     -3.744093
   3.09833     -3.877268
   3.17233     -3.987375
   3.24633     -4.068850
   3.32033     -4.113642
   3.39433     -4.127410
 
 
# Band-Index    8
   3.39433     -2.422942
   3.32033     -2.435350
   3.24633     -2.470100
   3.17233     -2.521074
   3.09833     -2.581147
   3.02433     -2.644184
   2.95033     -2.705722
   2.87633     -2.762815
   2.80234     -2.813390
   2.72834     -2.854689
   2.65434     -2.876631
   2.58034     -2.803165
   2.50634     -2.649193
   2.43234     -2.716055
   2.35834     -2.769183
   2.28434     -2.728767
   2.21035     -2.931654
   2.13635     -3.111991
   2.06235     -3.118754
   1.98835     -3.121031
   1.98835     -3.121031
   1.93602     -3.130307
   1.88370     -3.154886
   1.83137     -3.127423
   1.77905     -3.000720
   1.72672     -2.870250
   1.67440     -2.854464
   1.62207     -2.883082
   1.56975     -2.868671
   1.51742     -2.813043
   1.46510     -2.894485
   1.41277     -2.987165
   1.36045     -2.979815
   1.30812     -2.909827
   1.25580     -2.834020
   1.20347     -2.756331
   1.15115     -2.681979
   1.09882     -2.618532
   1.04650     -2.575094
   0.99417     -2.559554
   0.99417     -2.559554
   0.94185     -2.684096
   0.88952     -2.879437
   0.83720     -2.930647
   0.78487     -2.875011
   0.73255     -2.804435
   0.68022     -2.719598
   0.62790     -2.621306
   0.57557     -2.510477
   0.52325     -2.388404
   0.47092     -2.255302
   0.41860     -2.113249
   0.36627     -2.235763
   0.31395     -2.352634
   0.26162     -2.422688
   0.20930     -2.453251
   0.15697     -2.455597
   0.10465     -2.443120
   0.05232     -2.428924
   0.00000     -2.422942
 
 
# Band-Index    9
   0.00000     -1.225739
   0.05232     -1.245633
   0.10465     -1.299372
   0.15697     -1.373703
   0.20930     -1.480782
   0.26162     -1.645293
   0.31395     -1.806732
   0.36627     -1.963250
   0.41860     -2.075219
   0.47092     -2.236023
   0.52325     -2.388107
   0.57557     -2.327808
   0.62790     -2.096837
   0.68022     -1.893491
   0.73255     -1.722153
   0.78487     -1.660200
   0.83720     -1.818390
   0.88952     -1.999443
   0.94185     -2.188496
   0.99417     -2.311474
   0.99417     -2.311474
   1.04650     -2.346698
   1.09882     -2.421381
   1.15115     -2.490163
   1.20347     -2.524399
   1.25580     -2.508336
   1.30812     -2.437494
   1.36045     -2.472642
   1.41277     -2.609225
   1.46510     -2.724321
   1.51742     -2.709289
   1.56975     -2.499145
   1.62207     -2.483702
   1.67440     -2.656214
   1.72672     -2.719907
   1.77905     -2.621332
   1.83137     -2.503406
   1.88370     -2.442132
   1.93602     -2.512729
   1.98835     -2.538458
   1.98835     -2.538458
   2.06235     -2.489624
   2.13635     -2.428745
   2.21035     -2.557654
   2.28434     -2.676864
   2.35834     -2.495457
   2.43234     -2.570459
   2.50634     -2.554682
   2.58034     -2.703762
   2.65434     -2.686772
   2.72834     -2.595083
   2.80234     -2.542840
   2.87633     -2.446430
   2.95033     -2.250228
   3.02433     -1.999489
   3.09833     -1.778084
   3.17233     -1.591784
   3.24633     -1.417193
   3.32033     -1.280591
   3.39433     -1.225739
 
 
# Band-Index   10
   3.39433     -1.225739
   3.32033     -1.236365
   3.24633     -1.297210
   3.17233     -1.468506
   3.09833     -1.725674
   3.02433     -1.963529
   2.95033     -2.141977
   2.87633     -2.309774
   2.80234     -2.463205
   2.72834     -2.507240
   2.65434     -2.568856
   2.58034     -2.580179
   2.50634     -2.502846
   2.43234     -2.327592
   2.35834     -2.494201
   2.28434     -2.429049
   2.21035     -2.377586
   2.13635     -2.374283
   2.06235     -2.341366
   1.98835     -2.310828
   1.98835     -2.310828
   1.93602     -2.334378
   1.88370     -2.401845
   1.83137     -2.341009
   1.77905     -2.250767
   1.72672     -2.229322
   1.67440     -2.213180
   1.62207     -2.293089
   1.56975     -2.288914
   1.51742     -2.139585
   1.46510     -2.049339
   1.41277     -2.163851
   1.36045     -2.317962
   1.30812     -2.318271
   1.25580     -2.149166
   1.20347     -1.968154
   1.15115     -1.778191
   1.09882     -1.583157
   1.04650     -1.672625
   0.99417     -1.720412
   0.99417     -1.720412
   0.94185     -1.712577
   0.88952     -1.689023
   0.83720     -1.649633
   0.78487     -1.594280
   0.73255     -1.529548
   0.68022     -1.435684
   0.62790     -1.393118
   0.57557     -1.505186
   0.52325     -1.601583
   0.47092     -1.856366
   0.41860     -2.069635
   0.36627     -1.910018
   0.31395     -1.746220
   0.26162     -1.591938
   0.20930     -1.457264
   0.15697     -1.351587
   0.10465     -1.279300
   0.05232     -1.238669
   0.00000     -1.225739
 
 
# Band-Index   11
   0.00000     -0.881808
   0.05232     -0.995317
   0.10465     -1.151996
   0.15697     -1.315399
   0.20930     -1.454697
   0.26162     -1.530534
   0.31395     -1.592002
   0.36627     -1.632319
   0.41860     -1.646687
   0.47092     -1.631739
   0.52325     -1.585069
   0.57557     -1.314515
   0.62790     -1.333150
   0.68022     -1.422451
   0.73255     -1.522908
   0.78487     -1.581449
   0.83720     -1.469541
   0.88952     -1.386958
   0.94185     -1.335904
   0.99417     -1.318583
   0.99417     -1.318583
   1.04650     -1.391889
   1.09882     -1.558505
   1.15115     -1.418514
   1.20347     -1.445890
   1.25580     -1.536620
   1.30812     -1.653117
   1.36045     -1.787069
   1.41277     -1.925054
   1.46510     -1.994306
   1.51742     -2.079720
   1.56975     -2.185530
   1.62207     -2.202256
   1.67440     -2.147477
   1.72672     -2.137335
   1.77905     -2.227713
   1.83137     -2.273494
   1.88370     -2.293108
   1.93602     -2.306232
   1.98835     -2.310828
   1.98835     -2.310828
   2.06235     -2.318278
   2.13635     -2.340572
   2.21035     -2.237617
   2.28434     -2.110066
   2.35834     -2.086907
   2.43234     -2.324263
   2.50634     -2.496003
   2.58034     -2.320139
   2.65434     -2.390133
   2.72834     -2.451588
   2.80234     -2.247465
   2.87633     -2.071323
   2.95033     -1.942082
   3.02433     -1.797771
   3.09833     -1.633915
   3.17233     -1.452935
   3.24633     -1.257443
   3.32033     -1.052387
   3.39433     -0.881808
 
 
# Band-Index   12
   3.39433     -0.793218
   3.32033     -0.780529
   3.24633     -0.745846
   3.17233     -0.784271
   3.09833     -0.800402
   3.02433     -1.097604
   2.95033     -1.481505
   2.87633     -1.826825
   2.80234     -2.026853
   2.72834     -2.056296
   2.65434     -2.028059
   2.58034     -2.277439
   2.50634     -2.247709
   2.43234     -2.142082
   2.35834     -1.981024
   2.28434     -1.755610
   2.21035     -1.441882
   2.13635     -1.165165
   2.06235     -0.974242
   1.98835     -0.905857
   1.98835     -0.905857
   1.93602     -0.934600
   1.88370     -1.018319
   1.83137     -1.148623
   1.77905     -1.307755
   1.72672     -1.455276
   1.67440     -1.504497
   1.62207     -1.559938
   1.56975     -1.684669
   1.51742     -1.829777
   1.46510     -1.859407
   1.41277     -1.631222
   1.36045     -1.399123
   1.30812     -1.168248
   1.25580     -1.138570
   1.20347     -1.274857
   1.15115     -1.382964
   1.09882     -1.344454
   1.04650     -1.324597
   0.99417     -1.268980
   0.99417     -1.268980
   0.94185     -1.261229
   0.88952     -1.238272
   0.83720     -1.201034
   0.78487     -1.151084
   0.73255     -1.126827
   0.68022     -1.258026
   0.62790     -1.328705
   0.57557     -1.235718
   0.52325     -1.141314
   0.47092     -1.041184
   0.41860     -0.940135
   0.36627     -0.908248
   0.31395     -0.878723
   0.26162     -0.829279
   0.20930     -0.759526
   0.15697     -0.707416
   0.10465     -0.744904
   0.05232     -0.779574
   0.00000     -0.793218
 
 
# Band-Index   13
   0.00000     -0.793218
   0.05232     -0.694106
   0.10465     -0.582923
   0.15697     -0.670032
   0.20930     -0.691421
   0.26162     -0.711548
   0.31395     -0.765883
   0.36627     -0.845358
   0.41860     -0.918660
   0.47092     -0.950226
   0.52325     -1.087633
   0.57557     -1.216451
   0.62790     -1.003389
   0.68022     -1.022821
   0.73255     -1.090685
   0.78487     -1.042608
   0.83720     -1.018483
   0.88952     -1.024963
   0.94185     -1.036691
   0.99417     -1.041731
   0.99417     -1.041731
   1.04650     -0.919179
   1.09882     -0.730575
   1.15115     -0.593086
   1.20347     -0.740835
   1.25580     -0.945481
   1.30812     -1.014332
   1.36045     -0.900772
   1.41277     -0.789152
   1.46510     -0.799053
   1.51742     -1.025278
   1.56975     -1.234884
   1.62207     -1.409735
   1.67440     -1.445492
   1.72672     -1.330638
   1.77905     -1.212212
   1.83137     -1.096676
   1.88370     -0.997453
   1.93602     -0.929869
   1.98835     -0.905857
   1.98835     -0.905857
   2.06235     -0.942900
   2.13635     -1.053713
   2.21035     -1.236752
   2.28434     -1.487306
   2.35834     -1.794892
   2.43234     -1.931573
   2.50634     -1.915277
   2.58034     -1.947960
   2.65434     -2.011241
   2.72834     -1.701611
   2.80234     -1.364390
   2.87633     -1.065512
   2.95033     -0.874153
   3.02433     -0.805971
   3.09833     -0.730448
   3.17233     -0.697347
   3.24633     -0.680615
   3.32033     -0.636593
   3.39433     -0.793218
 
 
# Band-Index   14
   3.39433     -0.413804
   3.32033     -0.500935
   3.24633     -0.480894
   3.17233     -0.458879
   3.09833     -0.643661
   3.02433     -0.590005
   2.95033     -0.536615
   2.87633     -0.479568
   2.80234     -0.412715
   2.72834     -0.348298
   2.65434     -0.383435
   2.58034     -0.359767
   2.50634     -0.186387
   2.43234      0.000500
   2.35834      0.296740
   2.28434      0.667962
   2.21035      1.064223
   2.13635      1.429249
   2.06235      1.653827
   1.98835      1.672778
   1.98835      1.672778
   1.93602      1.663215
   1.88370      1.531541
   1.83137      1.264978
   1.77905      0.966407
   1.72672      0.667184
   1.67440      0.335087
   1.62207      0.001317
   1.56975     -0.279435
   1.51742     -0.498913
   1.46510     -0.662586
   1.41277     -0.566827
   1.36045     -0.339283
   1.30812     -0.132020
   1.25580     -0.137288
   1.20347     -0.323071
   1.15115     -0.483870
   1.09882     -0.401098
   1.04650     -0.313033
   0.99417     -0.281939
   0.99417     -0.281939
   0.94185     -0.313999
   0.88952     -0.401791
   0.83720     -0.523145
   0.78487     -0.643992
   0.73255     -0.727794
   0.68022     -0.776927
   0.62790     -0.951126
   0.57557     -0.879619
   0.52325     -0.888873
   0.47092     -0.911360
   0.41860     -0.810031
   0.36627     -0.676444
   0.31395     -0.599254
   0.26162     -0.539780
   0.20930     -0.468517
   0.15697     -0.502896
   0.10465     -0.564895
   0.05232     -0.461089
   0.00000     -0.413804
 
 
# Band-Index   15
   0.00000     -0.365785
   0.05232     -0.350704
   0.10465     -0.303648
   0.15697     -0.351114
   0.20930     -0.459979
   0.26162     -0.489510
   0.31395     -0.563659
   0.36627     -0.648966
   0.41860     -0.697732
   0.47092     -0.751299
   0.52325     -0.812107
   0.57557     -0.855444
   0.62790     -0.816812
   0.68022     -0.691760
   0.73255     -0.417308
   0.78487     -0.246686
   0.83720     -0.186053
   0.88952     -0.169791
   0.94185     -0.164669
   0.99417     -0.163283
   0.99417     -0.163283
   1.04650     -0.151268
   1.09882     -0.115758
   1.15115     -0.058267
   1.20347      0.018566
   1.25580      0.014843
   1.30812     -0.086762
   1.36045     -0.154660
   1.41277     -0.188135
   1.46510     -0.182224
   1.51742     -0.127717
   1.56975     -0.015057
   1.62207      0.159826
   1.67440      0.391797
   1.72672      0.706614
   1.77905      1.096584
   1.83137      1.461373
   1.88370      1.626183
   1.93602      1.724998
   1.98835      1.799012
   1.98835      1.799012
   2.06235      1.696298
   2.13635      1.488735
   2.21035      1.201367
   2.28434      0.895116
   2.35834      0.524232
   2.43234      0.122895
   2.50634     -0.177386
   2.58034     -0.225167
   2.65434     -0.248625
   2.72834     -0.329293
   2.80234     -0.407377
   2.87633     -0.433081
   2.95033     -0.433836
   3.02433     -0.418431
   3.09833     -0.395482
   3.17233     -0.373299
   3.24633     -0.359948
   3.32033     -0.360659
   3.39433     -0.365785
 
 
# Band-Index   16
   3.39433     -0.319062
   3.32033     -0.314875
   3.24633     -0.326734
   3.17233     -0.351717
   3.09833     -0.265613
   3.02433     -0.186649
   2.95033     -0.126860
   2.87633     -0.114515
   2.80234     -0.180129
   2.72834     -0.297294
   2.65434     -0.222766
   2.58034     -0.103499
   2.50634      0.085433
   2.43234      0.301385
   2.35834      0.569354
   2.28434      0.896088
   2.21035      1.282497
   2.13635      1.586693
   2.06235      1.710931
   1.98835      1.799012
   1.98835      1.799012
   1.93602      1.775825
   1.88370      1.709886
   1.83137      1.610050
   1.77905      1.486293
   1.72672      1.346999
   1.67440      1.198106
   1.62207      1.043383
   1.56975      0.884922
   1.51742      0.723627
   1.46510      0.559587
   1.41277      0.392291
   1.36045      0.220876
   1.30812      0.044487
   1.25580      0.028023
   1.20347      0.113055
   1.15115      0.108117
   1.09882      0.060865
   1.04650      0.015924
   0.99417     -0.001639
   0.99417     -0.001639
   0.94185      0.009466
   0.88952      0.042292
   0.83720      0.095351
   0.78487      0.166073
   0.73255      0.250729
   0.68022      0.344261
   0.62790      0.440229
   0.57557      0.531058
   0.52325      0.562542
   0.47092      0.458905
   0.41860      0.316533
   0.36627      0.165381
   0.31395      0.019679
   0.26162     -0.109348
   0.20930     -0.209629
   0.15697     -0.272733
   0.10465     -0.292239
   0.05232     -0.315926
   0.00000     -0.319062
 
 
# Band-Index   17
   0.00000      0.055246
   0.05232     -0.053501
   0.10465     -0.211800
   0.15697     -0.202976
   0.20930     -0.092609
   0.26162      0.032929
   0.31395      0.169500
   0.36627      0.313019
   0.41860      0.456913
   0.47092      0.586238
   0.52325      0.609039
   0.57557      0.570215
   0.62790      0.484201
   0.68022      0.387782
   0.73255      0.354011
   0.78487      0.453023
   0.83720      0.674640
   0.88952      0.721751
   0.94185      0.744097
   0.99417      0.749226
   0.99417      0.749226
   1.04650      0.668054
   1.09882      0.498083
   1.15115      0.315406
   1.20347      0.150210
   1.25580      0.117470
   1.30812      0.226877
   1.36045      0.350916
   1.41277      0.486934
   1.46510      0.633689
   1.51742      0.790500
   1.56975      0.957210
   1.62207      1.134161
   1.67440      1.322029
   1.72672      1.521381
   1.77905      1.614720
   1.83137      1.696262
   1.88370      1.837110
   1.93602      1.851419
   1.98835      1.854558
   1.98835      1.854558
   2.06235      1.846960
   2.13635      1.718290
   2.21035      1.382547
   2.28434      0.969005
   2.35834      0.597049
   2.43234      0.324313
   2.50634      0.088421
   2.58034     -0.086757
   2.65434     -0.186473
   2.72834     -0.124379
   2.80234     -0.066197
   2.87633      0.014822
   2.95033      0.160207
   3.02433      0.269930
   3.09833      0.190928
   3.17233      0.064427
   3.24633     -0.024312
   3.32033     -0.030364
   3.39433      0.055246
 
 
# Band-Index   18
   3.39433      0.055246
   3.32033      0.111225
   3.24633      0.266208
   3.17233      0.487002
   3.09833      0.743675
   3.02433      0.802322
   2.95033      0.826608
   2.87633      0.749645
   2.80234      0.712200
   2.72834      0.748143
   2.65434      0.831828
   2.58034      0.936130
   2.50634      1.050226
   2.43234      1.175705
   2.35834      1.315204
   2.28434      1.462280
   2.21035      1.629560
   2.13635      1.814024
   2.06235      2.167854
   1.98835      2.443687
   1.98835      2.443687
   1.93602      2.271483
   1.88370      1.952498
   1.83137      1.813025
   1.77905      1.731708
   1.72672      1.556762
   1.67440      1.498427
   1.62207      1.439751
   1.56975      1.384232
   1.51742      1.336705
   1.46510      1.302423
   1.41277      1.285697
   1.36045      1.238141
   1.30812      1.091067
   1.25580      0.986708
   1.20347      0.957204
   1.15115      1.005907
   1.09882      1.087526
   1.04650      1.154322
   0.99417      1.179379
   0.99417      1.179379
   0.94185      1.107774
   0.88952      0.919778
   0.83720      0.674658
   0.78487      0.615006
   0.73255      0.571075
   0.68022      0.566698
   0.62790      0.604983
   0.57557      0.658663
   0.52325      0.665543
   0.47092      0.668411
   0.41860      0.708439
   0.36627      0.736141
   0.31395      0.767176
   0.26162      0.822994
   0.20930      0.676731
   0.15697      0.477735
   0.10465      0.287133
   0.05232      0.127538
   0.00000      0.055246
 
 
# Band-Index   19
   0.00000      0.273306
   0.05232      0.388306
   0.10465      0.565246
   0.15697      0.733796
   0.20930      0.875260
   0.26162      0.870660
   0.31395      1.035294
   0.36627      1.056127
   0.41860      1.055620
   0.47092      1.050789
   0.52325      1.054036
   0.57557      1.040398
   0.62790      1.091411
   0.68022      1.150995
   0.73255      1.205976
   0.78487      1.254338
   0.83720      1.287128
   0.88952      1.310019
   0.94185      1.323464
   0.99417      1.327858
   0.99417      1.327858
   1.04650      1.330067
   1.09882      1.335438
   1.15115      1.340071
   1.20347      1.337916
   1.25580      1.324658
   1.30812      1.304151
   1.36045      1.287716
   1.41277      1.403445
   1.46510      1.572953
   1.51742      1.627601
   1.56975      1.643694
   1.62207      1.671923
   1.67440      1.707277
   1.72672      1.745131
   1.77905      1.781483
   1.83137      1.949489
   1.88370      2.164296
   1.93602      2.350143
   1.98835      2.443687
   1.98835      2.443687
   2.06235      2.260338
   2.13635      1.936787
   2.21035      1.757419
   2.28434      1.680033
   2.35834      1.586649
   2.43234      1.485144
   2.50634      1.386689
   2.58034      1.304926
   2.65434      1.251316
   2.72834      1.220226
   2.80234      1.168079
   2.87633      1.039790
   2.95033      0.866540
   3.02433      0.864333
   3.09833      0.847557
   3.17233      0.869135
   3.24633      0.750295
   3.32033      0.476312
   3.39433      0.273306
 
 
# Band-Index   20
   3.39433      1.446114
   3.32033      1.359416
   3.24633      1.046123
   3.17233      0.928136
   3.09833      0.915798
   3.02433      1.017887
   2.95033      1.298278
   2.87633      1.576723
   2.80234      1.846660
   2.72834      1.960581
   2.65434      1.889584
   2.58034      1.837147
   2.50634      1.825496
   2.43234      1.862834
   2.35834      1.946096
   2.28434      2.068347
   2.21035      2.217026
   2.13635      2.364836
   2.06235      2.473596
   1.98835      2.502303
   1.98835      2.502303
   1.93602      2.508156
   1.88370      2.485035
   1.83137      2.436007
   1.77905      2.365231
   1.72672      2.274334
   1.67440      2.164539
   1.62207      2.037259
   1.56975      1.894345
   1.51742      1.738368
   1.46510      1.628465
   1.41277      1.649839
   1.36045      1.692236
   1.30812      1.750306
   1.25580      1.766371
   1.20347      1.668358
   1.15115      1.592042
   1.09882      1.538482
   1.04650      1.484084
   0.99417      1.404731
   0.99417      1.404731
   0.94185      1.394230
   0.88952      1.364250
   0.83720      1.318932
   0.78487      1.264041
   0.73255      1.210997
   0.68022      1.156104
   0.62790      1.104734
   0.57557      1.071632
   0.52325      1.054387
   0.47092      1.089309
   0.41860      1.099474
   0.36627      1.114690
   0.31395      1.046039
   0.26162      0.977306
   0.20930      0.922019
   0.15697      1.069594
   0.10465      1.257997
   0.05232      1.436090
   0.00000      1.446114
 
 
# Band-Index   21
   0.00000      1.683769
   0.05232      1.474352
   0.10465      1.402062
   0.15697      1.342904
   0.20930      1.270720
   0.26162      1.201898
   0.31395      1.148199
   0.36627      1.184080
   0.41860      1.256599
   0.47092      1.247873
   0.52325      1.220401
   0.57557      1.268432
   0.62790      1.367918
   0.68022      1.484525
   0.73255      1.536021
   0.78487      1.516163
   0.83720      1.489984
   0.88952      1.482133
   0.94185      1.490655
   0.99417      1.497066
   0.99417      1.497066
   1.04650      1.507246
   1.09882      1.641461
   1.15115      1.776852
   1.20347      1.831615
   1.25580      1.808039
   1.30812      1.866312
   1.36045      1.911014
   1.41277      1.976744
   1.46510      2.055610
   1.51742      2.141074
   1.56975      2.227611
   1.62207      2.310536
   1.67440      2.386078
   1.72672      2.451516
   1.77905      2.505120
   1.83137      2.545822
   1.88370      2.572268
   1.93602      2.579241
   1.98835      2.559857
   1.98835      2.559857
   2.06235      2.623031
   2.13635      2.658099
   2.21035      2.648112
   2.28434      2.607986
   2.35834      2.549843
   2.43234      2.485257
   2.50634      2.425970
   2.58034      2.384271
   2.65434      2.339254
   2.72834      2.102462
   2.80234      2.004801
   2.87633      1.835644
   2.95033      1.682669
   3.02433      1.557416
   3.09833      1.468962
   3.17233      1.421668
   3.24633      1.413109
   3.32033      1.431137
   3.39433      1.683769
 
 
# Band-Index   22
   3.39433      1.683769
   3.32033      1.723090
   3.24633      1.814598
   3.17233      1.929166
   3.09833      2.053753
   3.02433      2.181915
   2.95033      2.123926
   2.87633      2.074122
   2.80234      2.024592
   2.72834      2.178271
   2.65434      2.345685
   2.58034      2.499781
   2.50634      2.637173
   2.43234      2.757501
   2.35834      2.861424
   2.28434      2.948903
   2.21035      3.018669
   2.13635      3.068228
   2.06235      3.090766
   1.98835      3.061781
   1.98835      3.061781
   1.93602      3.104642
   1.88370      3.120318
   1.83137      3.084812
   1.77905      3.029814
   1.72672      2.953165
   1.67440      2.854737
   1.62207      2.736692
   1.56975      2.602968
   1.51742      2.458558
   1.46510      2.308931
   1.41277      2.159647
   1.36045      2.016143
   1.30812      1.883536
   1.25580      1.851001
   1.20347      1.868744
   1.15115      1.911152
   1.09882      1.959711
   1.04650      1.996200
   0.99417      2.009504
   0.99417      2.009504
   0.94185      1.996274
   0.88952      1.949736
   0.83720      1.865113
   0.78487      1.750040
   0.73255      1.617993
   0.68022      1.496520
   0.62790      1.383852
   0.57557      1.285841
   0.52325      1.254969
   0.47092      1.312630
   0.41860      1.439896
   0.36627      1.568026
   0.31395      1.659013
   0.26162      1.698362
   0.20930      1.698539
   0.15697      1.684905
   0.10465      1.676982
   0.05232      1.680041
   0.00000      1.683769
 
 
# Band-Index   23
   0.00000      1.734257
   0.05232      1.949134
   0.10465      2.181894
   0.15697      2.397271
   0.20930      2.496418
   0.26162      2.439798
   0.31395      2.419612
   0.36627      2.173113
   0.41860      1.985415
   0.47092      1.891425
   0.52325      1.863802
   0.57557      1.851233
   0.62790      1.837515
   0.68022      1.849569
   0.73255      1.944191
   0.78487      2.109442
   0.83720      2.297227
   0.88952      2.477794
   0.94185      2.618755
   0.99417      2.674848
   0.99417      2.674848
   1.04650      2.658405
   1.09882      2.624026
   1.15115      2.614144
   1.20347      2.676841
   1.25580      2.811426
   1.30812      2.866448
   1.36045      2.875954
   1.41277      2.895981
   1.46510      2.924009
   1.51742      2.957999
   1.56975      2.996028
   1.62207      3.035908
   1.67440      3.074919
   1.72672      3.109720
   1.77905      3.136452
   1.83137      3.150552
   1.88370      3.144537
   1.93602      3.139537
   1.98835      3.145501
   1.98835      3.145501
   2.06235      3.133888
   2.13635      3.100300
   2.21035      3.050188
   2.28434      2.993419
   2.35834      2.941490
   2.43234      2.901151
   2.50634      2.740948
   2.58034      2.553062
   2.65434      2.374448
   2.72834      2.414857
   2.80234      2.438418
   2.87633      2.295227
   2.95033      2.270480
   3.02433      2.198916
   3.09833      2.307886
   3.17233      2.390399
   3.24633      2.255276
   3.32033      2.019989
   3.39433      1.734257
 
 
# Band-Index   24
   3.39433      2.671856
   3.32033      2.645874
   3.24633      2.572954
   3.17233      2.495709
   3.09833      2.351497
   3.02433      2.288331
   2.95033      2.310133
   2.87633      2.436794
   2.80234      2.522122
   2.72834      2.684792
   2.65434      2.806291
   2.58034      2.903950
   2.50634      2.891131
   2.43234      2.904840
   2.35834      3.033147
   2.28434      3.137369
   2.21035      3.214743
   2.13635      3.265576
   2.06235      3.287852
   1.98835      3.203901
   1.98835      3.203901
   1.93602      3.268330
   1.88370      3.295916
   1.83137      3.300779
   1.77905      3.301697
   1.72672      3.297661
   1.67440      3.289331
   1.62207      3.277932
   1.56975      3.264666
   1.51742      3.250617
   1.46510      3.236839
   1.41277      3.224455
   1.36045      3.137819
   1.30812      2.975942
   1.25580      2.870827
   1.20347      2.893372
   1.15115      2.938234
   1.09882      3.005219
   1.04650      3.079281
   0.99417      3.116305
   0.99417      3.116305
   0.94185      3.107634
   0.88952      3.082371
   0.83720      3.042683
   0.78487      2.992064
   0.73255      2.935184
   0.68022      2.877758
   0.62790      2.826343
   0.57557      2.787786
   0.52325      2.756081
   0.47092      2.634687
   0.41860      2.528565
   0.36627      2.451493
   0.31395      2.427388
   0.26162      2.710830
   0.20930      2.579386
   0.15697      2.563324
   0.10465      2.621003
   0.05232      2.658803
   0.00000      2.671856
 
 
# Band-Index   25
   0.00000      3.411794
   0.05232      3.332383
   0.10465      3.181377
   0.15697      3.034082
   0.20930      2.920123
   0.26162      2.716813
   0.31395      2.780660
   0.36627      2.796576
   0.41860      2.783601
   0.47092      2.768377
   0.52325      2.767831
   0.57557      2.882507
   0.62790      3.006074
   0.68022      3.120608
   0.73255      3.222072
   0.78487      3.309692
   0.83720      3.387455
   0.88952      3.425854
   0.94185      3.412062
   0.99417      3.406742
   0.99417      3.406742
   1.04650      3.350956
   1.09882      3.286695
   1.15115      3.244556
   1.20347      3.220853
   1.25580      3.210475
   1.30812      3.209413
   1.36045      3.214777
   1.41277      3.281775
   1.46510      3.402800
   1.51742      3.500696
   1.56975      3.576622
   1.62207      3.631140
   1.67440      3.663488
   1.72672      3.671664
   1.77905      3.653453
   1.83137      3.554046
   1.88370      3.407291
   1.93602      3.290329
   1.98835      3.287892
   1.98835      3.287892
   2.06235      3.290142
   2.13635      3.315073
   2.21035      3.299788
   2.28434      3.264000
   2.35834      3.207608
   2.43234      3.130191
   2.50634      3.034068
   2.58034      2.924171
   2.65434      2.935974
   2.72834      2.735575
   2.80234      2.561582
   2.87633      2.687640
   2.95033      2.810787
   3.02433      2.718166
   3.09833      2.585892
   3.17233      2.553446
   3.24633      2.895683
   3.32033      3.244980
   3.39433      3.411794
 
 
# Band-Index   26
   3.39433      3.509877
   3.32033      3.500351
   3.24633      3.475506
   3.17233      3.442774
   3.09833      3.408801
   3.02433      3.365815
   2.95033      3.211323
   2.87633      3.209778
   2.80234      3.115689
   2.72834      3.035993
   2.65434      3.193260
   2.58034      3.680723
   2.50634      4.216509
   2.43234      4.224612
   2.35834      4.141651
   2.28434      4.014601
   2.21035      3.849212
   2.13635      3.666892
   2.06235      3.515079
   1.98835      3.457595
   1.98835      3.457595
   1.93602      3.484195
   1.88370      3.545548
   1.83137      3.608962
   1.77905      3.678542
   1.72672      3.769938
   1.67440      3.826504
   1.62207      3.851451
   1.56975      3.850530
   1.51742      3.830455
   1.46510      3.797905
   1.41277      3.758969
   1.36045      3.718943
   1.30812      3.682267
   1.25580      3.652529
   1.20347      3.632305
   1.15115      3.622640
   1.09882      3.622094
   1.04650      3.626074
   0.99417      3.551606
   0.99417      3.551606
   0.94185      3.551274
   0.88952      3.464673
   0.83720      3.442133
   0.78487      3.452556
   0.73255      3.448312
   0.68022      3.422176
   0.62790      3.370346
   0.57557      3.293492
   0.52325      3.196803
   0.47092      3.089537
   0.41860      2.984774
   0.36627      2.899184
   0.31395      2.851375
   0.26162      2.856689
   0.20930      3.019483
   0.15697      3.313001
   0.10465      3.483479
   0.05232      3.504489
   0.00000      3.509877
 
 
# Band-Index   27
   0.00000      3.615359
   0.05232      3.628464
   0.10465      3.602614
   0.15697      3.483494
   0.20930      3.451039
   0.26162      3.418621
   0.31395      3.386697
   0.36627      3.360055
   0.41860      3.345212
   0.47092      3.348999
   0.52325      3.375764
   0.57557      3.424068
   0.62790      3.485706
   0.68022      3.548066
   0.73255      3.597940
   0.78487      3.624952
   0.83720      3.624541
   0.88952      3.600667
   0.94185      3.567966
   0.99417      3.628420
   0.99417      3.628420
   1.04650      3.650048
   1.09882      3.825370
   1.15115      3.918644
   1.20347      3.989203
   1.25580      4.043537
   1.30812      4.089149
   1.36045      4.129515
   1.41277      4.165099
   1.46510      4.194440
   1.51742      4.214639
   1.56975      4.221589
   1.62207      4.210066
   1.67440      4.173902
   1.72672      4.106470
   1.77905      4.001885
   1.83137      3.858234
   1.88370      3.686247
   1.93602      3.529834
   1.98835      3.466577
   1.98835      3.466577
   2.06235      3.639314
   2.13635      4.122781
   2.21035      4.683096
   2.28434      5.254930
   2.35834      5.306538
   2.43234      4.767269
   2.50634      4.266356
   2.58034      4.273783
   2.65434      4.254912
   2.72834      4.130443
   2.80234      3.720851
   2.87633      3.377331
   2.95033      3.298432
   3.02433      3.384651
   3.09833      3.649273
   3.17233      3.765209
   3.24633      3.708097
   3.32033      3.641162
   3.39433      3.615359
 
 
# Band-Index   28
   3.39433      3.870407
   3.32033      3.876037
   3.24633      3.892841
   3.17233      3.908243
   3.09833      3.931290
   3.02433      4.004473
   2.95033      4.057170
   2.87633      4.113102
   2.80234      4.168187
   2.72834      4.217430
   2.65434      4.573582
   2.58034      5.033429
   2.50634      5.497459
   2.43234      5.947590
   2.35834      5.817850
   2.28434      5.801314
   2.21035      6.204648
   2.13635      6.418058
   2.06235      6.274994
   1.98835      6.215286
   1.98835      6.215286
   1.93602      6.246279
   1.88370      6.332697
   1.83137      6.454684
   1.77905      6.403448
   1.72672      6.264227
   1.67440      6.085726
   1.62207      5.878733
   1.56975      5.654259
   1.51742      5.422974
   1.46510      5.195307
   1.41277      4.981373
   1.36045      4.790166
   1.30812      4.628141
   1.25580      4.498111
   1.20347      4.342357
   1.15115      4.072161
   1.09882      3.837688
   1.04650      3.725734
   0.99417      3.677492
   0.99417      3.677492
   0.94185      3.755094
   0.88952      3.859471
   0.83720      3.991965
   0.78487      4.164090
   0.73255      4.372919
   0.68022      4.582555
   0.62790      4.672571
   0.57557      4.606857
   0.52325      4.485909
   0.47092      4.353018
   0.41860      4.222122
   0.36627      4.098941
   0.31395      3.986213
   0.26162      3.885375
   0.20930      3.797379
   0.15697      3.723446
   0.10465      3.665877
   0.05232      3.794399
   0.00000      3.870407
 
 
# Band-Index   29
   0.00000      3.870407
   0.05232      3.955229
   0.10465      4.123987
   0.15697      4.305901
   0.20930      4.392554
   0.26162      4.337986
   0.31395      4.342556
   0.36627      4.409233
   0.41860      4.520902
   0.47092      4.654996
   0.52325      4.793663
   0.57557      4.925276
   0.62790      5.042973
   0.68022      5.084629
   0.73255      5.064446
   0.78487      4.972044
   0.83720      4.790459
   0.88952      4.528834
   0.94185      4.327473
   0.99417      4.254482
   0.99417      4.254482
   1.04650      4.261556
   1.09882      4.285082
   1.15115      4.329653
   1.20347      4.399490
   1.25580      4.638948
   1.30812      4.953275
   1.36045      5.277556
   1.41277      5.604836
   1.46510      5.928810
   1.51742      6.243680
   1.56975      6.492283
   1.62207      6.627542
   1.67440      6.689905
   1.72672      6.669727
   1.77905      6.580082
   1.83137      6.495623
   1.88370      6.541873
   1.93602      6.556204
   1.98835      6.557966
   1.98835      6.557966
   2.06235      6.549172
   2.13635      6.458946
   2.21035      6.555434
   2.28434      6.563063
   2.35834      6.338259
   2.43234      6.359617
   2.50634      6.684264
   2.58034      6.242698
   2.65434      5.795498
   2.72834      5.357609
   2.80234      4.941016
   2.87633      4.561973
   2.95033      4.247110
   3.02433      4.031859
   3.09833      3.958160
   3.17233      3.920476
   3.24633      3.907899
   3.32033      3.893244
   3.39433      3.870407
 
 
# Band-Index   30
   3.39433      4.673245
   3.32033      4.617922
   3.24633      4.454167
   3.17233      4.250088
   3.09833      4.208872
   3.02433      4.362607
   2.95033      4.596616
   2.87633      4.883806
   2.80234      5.218526
   2.72834      5.596657
   2.65434      6.009809
   2.58034      6.440154
   2.50634      6.852002
   2.43234      7.091969
   2.35834      7.396334
   2.28434      7.602913
   2.21035      7.719368
   2.13635      7.791520
   2.06235      7.657549
   1.98835      7.614635
   1.98835      7.614635
   1.93602      7.634881
   1.88370      7.684346
   1.83137      7.648773
   1.77905      7.500859
   1.72672      7.308195
   1.67440      7.081066
   1.62207      6.824765
   1.56975      6.544028
   1.51742      6.303370
   1.46510      6.078375
   1.41277      5.830355
   1.36045      5.569093
   1.30812      5.303092
   1.25580      5.041569
   1.20347      4.796778
   1.15115      4.586572
   1.09882      4.432402
   1.04650      4.345079
   0.99417      4.317970
   0.99417      4.317970
   0.94185      4.390505
   0.88952      4.572161
   0.83720      4.824035
   0.78487      5.128323
   0.73255      5.105004
   0.68022      5.098270
   0.62790      5.067314
   0.57557      5.050107
   0.52325      5.027528
   0.47092      4.992928
   0.41860      4.939947
   0.36627      4.863614
   0.31395      4.761073
   0.26162      4.631949
   0.20930      4.478486
   0.15697      4.482683
   0.10465      4.577134
   0.05232      4.647366
   0.00000      4.673245
 
 
# Band-Index   31
   0.00000      4.941100
   0.05232      4.970792
   0.10465      5.056908
   0.15697      5.191181
   0.20930      5.361733
   0.26162      5.555162
   0.31395      5.757972
   0.36627      5.956849
   0.41860      6.136628
   0.47092      6.242281
   0.52325      5.918396
   0.57557      5.536421
   0.62790      5.232899
   0.68022      5.143195
   0.73255      5.224686
   0.78487      5.185088
   0.83720      5.152040
   0.88952      5.172538
   0.94185      5.186389
   0.99417      5.191273
   0.99417      5.191273
   1.04650      5.240922
   1.09882      5.380829
   1.15115      5.590723
   1.20347      5.849826
   1.25580      6.141487
   1.30812      6.453081
   1.36045      6.774662
   1.41277      7.097517
   1.46510      7.388269
   1.51742      7.552955
   1.56975      7.715652
   1.62207      7.877918
   1.67440      8.037431
   1.72672      8.057132
   1.77905      7.936750
   1.83137      7.826453
   1.88370      7.808625
   1.93602      7.865462
   1.98835      7.887664
   1.98835      7.887664
   2.06235      7.857307
   2.13635      7.796289
   2.21035      7.928005
   2.28434      7.613611
   2.35834      7.414904
   2.43234      7.183589
   2.50634      6.871141
   2.58034      7.345645
   2.65434      7.658095
   2.72834      7.449369
   2.80234      7.195533
   2.87633      6.914344
   2.95033      6.626359
   3.02433      6.346168
   3.09833      5.913083
   3.17233      5.517996
   3.24633      5.202431
   3.32033      5.004196
   3.39433      4.941100
 
 
# Band-Index   32
   3.39433      5.280503
   3.32033      5.372657
   3.24633      5.582043
   3.17233      5.825666
   3.09833      6.079791
   3.02433      6.350745
   2.95033      6.804091
   2.87633      7.257448
   2.80234      7.703526
   2.72834      8.139351
   2.65434      7.778635
   2.58034      7.819350
   2.50634      7.949773
   2.43234      8.077220
   2.35834      8.213941
   2.28434      8.224320
   2.21035      8.017756
   2.13635      7.996708
   2.06235      7.914778
   1.98835      7.887664
   1.98835      7.887664
   1.93602      7.907505
   1.88370      7.969595
   1.83137      8.073339
   1.77905      8.197385
   1.72672      8.189453
   1.67440      8.158545
   1.62207      8.178967
   1.56975      7.973199
   1.51742      7.709771
   1.46510      7.412788
   1.41277      7.210647
   1.36045      6.988840
   1.30812      6.700221
   1.25580      6.381760
   1.20347      6.073603
   1.15115      5.800087
   1.09882      5.581530
   1.04650      5.438390
   0.99417      5.388242
   0.99417      5.388242
   0.94185      5.382517
   0.88952      5.364836
   0.83720      5.333866
   0.78487      5.287782
   0.73255      5.594225
   0.68022      6.039812
   0.62790      6.457364
   0.57557      6.475627
   0.52325      6.430679
   0.47092      6.426931
   0.41860      6.414089
   0.36627      6.237932
   0.31395      6.067646
   0.26162      5.903359
   0.20930      5.744103
   0.15697      5.589408
   0.10465      5.444065
   0.05232      5.327874
   0.00000      5.280503
 
 
# Band-Index   33
   0.00000      7.611024
   0.05232      7.664093
   0.10465      7.816977
   0.15697      8.051627
   0.20930      8.339682
   0.26162      8.234666
   0.31395      7.772980
   0.36627      7.300836
   0.41860      6.834394
   0.47092      6.594531
   0.52325      6.776121
   0.57557      6.949566
   0.62790      6.513089
   0.68022      6.386381
   0.73255      6.313684
   0.78487      6.310000
   0.83720      6.402403
   0.88952      6.559796
   0.94185      6.726476
   0.99417      6.808459
   0.99417      6.808459
   1.04650      6.818377
   1.09882      6.848234
   1.15115      6.898455
   1.20347      6.970282
   1.25580      7.067318
   1.30812      7.200537
   1.36045      7.399458
   1.41277      7.692222
   1.46510      8.048329
   1.51742      8.196344
   1.56975      8.229776
   1.62207      8.219187
   1.67440      8.292891
   1.72672      8.290947
   1.77905      8.327202
   1.83137      8.442491
   1.88370      8.527681
   1.93602      8.578629
   1.98835      8.595339
   1.98835      8.595339
   2.06235      8.542282
   2.13635      8.293290
   2.21035      8.134301
   2.28434      8.326488
   2.35834      8.568333
   2.43234      8.743188
   2.50634      8.778275
   2.58034      8.944204
   2.65434      8.561407
   2.72834      8.167577
   2.80234      8.511468
   2.87633      8.810178
   2.95033      9.064225
   3.02433      9.274465
   3.09833      9.015404
   3.17233      8.470208
   3.24633      8.018308
   3.32033      7.716893
   3.39433      7.611024
 
 
# Band-Index   34
   3.39433      9.518903
   3.32033      9.489827
   3.24633      9.438310
   3.17233      9.396729
   3.09833      9.377557
   3.02433      9.384343
   2.95033      9.415078
   2.87633      9.463472
   2.80234      9.513344
   2.72834      9.489791
   2.65434      9.252448
   2.58034      8.988987
   2.50634      9.163661
   2.43234      8.850985
   2.35834      8.918197
   2.28434      8.998897
   2.21035      9.248286
   2.13635      9.119389
   2.06235      8.996079
   1.98835      9.005239
   1.98835      9.005239
   1.93602      8.987220
   1.88370      8.933742
   1.83137      8.852498
   1.77905      8.763667
   1.72672      8.691898
   1.67440      8.649752
   1.62207      8.624060
   1.56975      8.584531
   1.51742      8.428927
   1.46510      8.133029
   1.41277      8.053874
   1.36045      7.969565
   1.30812      7.887452
   1.25580      7.812440
   1.20347      7.747794
   1.15115      7.695695
   1.09882      7.657586
   1.04650      7.634382
   0.99417      7.626594
   0.99417      7.626594
   0.94185      7.621800
   0.88952      7.604661
   0.83720      7.567842
   0.78487      7.502953
   0.73255      7.405528
   0.68022      7.277379
   0.62790      7.124956
   0.57557      7.013017
   0.52325      7.513228
   0.47092      8.015549
   0.41860      8.482066
   0.36627      8.817862
   0.31395      8.856056
   0.26162      8.637622
   0.20930      8.667830
   0.15697      9.048503
   0.10465      9.341590
   0.05232      9.492520
   0.00000      9.518903
 
 
# Band-Index   35
   0.00000      9.726856
   0.05232      9.696695
   0.10465      9.688093
   0.15697      9.743444
   0.20930      9.836379
   0.26162      9.954627
   0.31395     10.086044
   0.36627     10.203770
   0.41860     10.234678
   0.47092     10.069337
   0.52325      9.762873
   0.57557      9.445307
   0.62790      9.174043
   0.68022      8.955006
   0.73255      8.756433
   0.78487      8.534506
   0.83720      8.274784
   0.88952      8.001786
   0.94185      7.766030
   0.99417      7.660931
   0.99417      7.660931
   1.04650      7.671991
   1.09882      7.705005
   1.15115      7.759437
   1.20347      7.834272
   1.25580      7.927819
   1.30812      8.037375
   1.36045      8.158701
   1.41277      8.285255
   1.46510      8.407265
   1.51742      8.511474
   1.56975      8.815131
   1.62207      9.196448
   1.67440      9.564254
   1.72672      9.710101
   1.77905      9.668868
   1.83137      9.634712
   1.88370      9.604890
   1.93602      9.583581
   1.98835      9.575797
   1.98835      9.575797
   2.06235      9.584095
   2.13635      9.511340
   2.21035      9.394259
   2.28434      9.248701
   2.35834      9.070277
   2.43234      9.411209
   2.50634      9.312906
   2.58034      9.496310
   2.65434      9.841338
   2.72834      9.787739
   2.80234      9.815903
   2.87633      9.972806
   2.95033     10.197063
   3.02433      9.603772
   3.09833      9.442183
   3.17233      9.569212
   3.24633      9.657685
   3.32033      9.709715
   3.39433      9.726856
 
 
# Band-Index   36
   3.39433      9.726856
   3.32033      9.777662
   3.24633      9.902131
   3.17233     10.084017
   3.09833     10.322517
   3.02433     10.612861
   2.95033     10.249355
   2.87633     10.764874
   2.80234     10.288420
   2.72834      9.941149
   2.65434      9.890801
   2.58034     10.004580
   2.50634      9.843317
   2.43234      9.577558
   2.35834      9.729273
   2.28434      9.685016
   2.21035      9.598480
   2.13635      9.819818
   2.06235      9.887828
   1.98835      9.893359
   1.98835      9.893359
   1.93602      9.895690
   1.88370      9.913005
   1.83137      9.961054
   1.77905     10.037688
   1.72672      9.905682
   1.67440      9.771668
   1.62207      9.871646
   1.56975      9.991869
   1.51742      9.987452
   1.46510      9.933829
   1.41277      9.847311
   1.36045      9.745521
   1.30812      9.641324
   1.25580      9.543291
   1.20347      9.457134
   1.15115      9.386733
   1.09882      9.334734
   1.04650      9.302875
   0.99417      9.292148
   0.99417      9.292148
   0.94185      9.312033
   0.88952      9.374908
   0.83720      9.489442
   0.78487      9.665674
   0.73255      9.908648
   0.68022     10.214554
   0.62790     10.569759
   0.57557     10.935429
   0.52325     11.067859
   0.47092     10.793733
   0.41860     10.478402
   0.36627     10.287380
   0.31395     10.403295
   0.26162     10.793846
   0.20930     10.580256
   0.15697     10.227732
   0.10465      9.957279
   0.05232      9.785792
   0.00000      9.726856
 
 
# Band-Index   37
   0.00000     12.762162
   0.05232     12.620883
   0.10465     12.264253
   0.15697     11.796313
   0.20930     11.287663
   0.26162     10.998698
   0.31395     11.469494
   0.36627     11.626314
   0.41860     11.277245
   0.47092     11.158713
   0.52325     11.174861
   0.57557     11.076306
   0.62790     10.793174
   0.68022     10.474352
   0.73255     10.216872
   0.78487     10.066911
   0.83720     10.025061
   0.88952     10.053692
   0.94185     10.102667
   0.99417     10.125942
   0.99417     10.125942
   1.04650     10.132881
   1.09882     10.153403
   1.15115     10.186596
   1.20347     10.230892
   1.25580     10.283951
   1.30812     10.342422
   1.36045     10.401528
   1.41277     10.454408
   1.46510     10.433897
   1.51742     10.212150
   1.56975     10.020047
   1.62207      9.952616
   1.67440      9.917267
   1.72672      9.950004
   1.77905     10.068721
   1.83137      9.996470
   1.88370      9.935032
   1.93602      9.902289
   1.98835      9.893359
   1.98835      9.893359
   2.06235      9.912377
   2.13635      9.969765
   2.21035     10.066370
   2.28434     10.203156
   2.35834     10.380581
   2.43234     10.426904
   2.50634     10.184036
   2.58034     10.106386
   2.65434      9.895926
   2.72834     10.193825
   2.80234     10.550580
   2.87633     10.773444
   2.95033     10.916342
   3.02433     10.626393
   3.09833     11.089527
   3.17233     11.608547
   3.24633     12.134402
   3.32033     12.574278
   3.39433     12.762162
 
 
# Band-Index   38
   3.39433     12.762162
   3.32033     12.693790
   3.24633     12.510262
   3.17233     12.250993
   3.09833     11.945812
   3.02433     11.613171
   2.95033     11.264827
   2.87633     10.908802
   2.80234     11.295359
   2.72834     11.307264
   2.65434     10.819643
   2.58034     10.328892
   2.50634     10.424975
   2.43234     10.597954
   2.35834     10.471963
   2.28434     10.228915
   2.21035     10.260081
   2.13635     10.467373
   2.06235     10.591849
   1.98835     10.547556
   1.98835     10.547558
   1.93602     10.571881
   1.88370     10.503964
   1.83137     10.265711
   1.77905     10.073092
   1.72672     10.116102
   1.67440     10.133589
   1.62207     10.160812
   1.56975     10.237703
   1.51742     10.376012
   1.46510     10.491406
   1.41277     10.669592
   1.36045     10.905315
   1.30812     11.129381
   1.25580     11.309866
   1.20347     11.426564
   1.15115     11.507966
   1.09882     11.559438
   1.04650     11.587236
   0.99417     11.595953
   0.99417     11.595952
   0.94185     11.657955
   0.88952     11.826997
   0.83720     12.069897
   0.78487     12.357611
   0.73255     12.533410
   0.68022     12.308736
   0.62790     12.006176
   0.57557     11.703929
   0.52325     11.649682
   0.47092     12.024420
   0.41860     12.487925
   0.36627     11.981874
   0.31395     12.104182
   0.26162     12.636913
   0.20930     12.964454
   0.15697     12.872660
   0.10465     12.810148
   0.05232     12.773981
   0.00000     12.762162
 
 
# Band-Index   39
   0.00000     13.457598
   0.05232     13.472698
   0.10465     13.508341
   0.15697     13.554485
   0.20930     13.193723
   0.26162     13.088851
   0.31395     13.248960
   0.36627     12.954459
   0.41860     12.527388
   0.47092     12.563492
   0.52325     12.179804
   0.57557     12.024610
   0.62790     12.125630
   0.68022     12.328440
   0.73255     12.549074
   0.78487     12.490140
   0.83720     12.221979
   0.88952     12.005089
   0.94185     11.870584
   0.99417     11.825321
   0.99417     11.825322
   1.04650     11.805148
   1.09882     11.744658
   1.15115     11.644284
   1.20347     11.505595
   1.25580     11.332069
   1.30812     11.156572
   1.36045     10.971734
   1.41277     10.767164
   1.46510     10.560829
   1.51742     10.500286
   1.56975     10.469582
   1.62207     10.395970
   1.67440     10.289909
   1.72672     10.175771
   1.77905     10.246470
   1.83137     10.489703
   1.88370     10.597917
   1.93602     10.774929
   1.98835     11.056317
   1.98835     11.059040
   2.06235     10.677654
   2.13635     10.512799
   2.21035     10.748561
   2.28434     11.239240
   2.35834     10.962409
   2.43234     10.781731
   2.50634     10.852901
   2.58034     11.141192
   2.65434     11.457071
   2.72834     11.794168
   2.80234     11.839007
   2.87633     11.451245
   2.95033     11.490552
   3.02433     12.078988
   3.09833     12.743195
   3.17233     13.432876
   3.24633     13.548574
   3.32033     13.486392
   3.39433     13.457598
 
 
# Band-Index   40
   3.39433     14.627287
   3.32033     14.707113
   3.24633     14.120291
   3.17233     13.614219
   3.09833     13.615633
   3.02433     13.266659
   2.95033     12.883047
   2.87633     12.415887
   2.80234     11.920014
   2.72834     11.893635
   2.65434     12.342750
   2.58034     11.965171
   2.50634     11.552363
   2.43234     11.121155
   2.35834     11.149773
   2.28434     11.282932
   2.21035     11.288403
   2.13635     10.947115
   2.06235     10.882791
   1.98835     11.066575
   1.98835     11.072016
   1.93602     10.970707
   1.88370     10.868652
   1.83137     10.820622
   1.77905     10.836641
   1.72672     10.948885
   1.67440     11.168427
   1.62207     11.469960
   1.56975     11.818930
   1.51742     12.189767
   1.46510     12.318654
   1.41277     12.436577
   1.36045     12.549428
   1.30812     12.631534
   1.25580     12.677169
   1.20347     12.691240
   1.15115     12.688298
   1.09882     12.676166
   1.04650     12.666300
   0.99417     12.661847
   0.99417     12.661772
   0.94185     12.699893
   0.88952     12.791880
   0.83720     12.856361
   0.78487     12.758368
   0.73255     12.711159
   0.68022     13.042364
   0.62790     13.409717
   0.57557     13.790801
   0.52325     13.692397
   0.47092     13.099300
   0.41860     13.036766
   0.36627     13.461356
   0.31395     13.363156
   0.26162     13.580790
   0.20930     13.596756
   0.15697     13.756452
   0.10465     14.304880
   0.05232     14.666080
   0.00000     14.625271
